Folder: TMD-Spectra

Note: pl_mos2.txt
wavelength	intensity
496.0459	369
496.37759	353
496.70929	353
497.04089	347
497.37259	317
497.70425	300
498.03595	302
498.36761	298
498.69931	296
499.03098	296
499.36267	302
499.69437	323
500.02603	349
500.35773	352
500.68939	363
501.02109	342
501.35275	312
501.68445	289
502.01617	278
502.34787	267
502.67953	250
503.01123	259
503.3429	256
503.67465	259
504.00632	253
504.33801	250
504.66968	251
505.00143	252
505.3331	246
505.66479	245
505.99652	248
506.32822	251
506.65988	240
506.99164	240
507.3233	239
507.65506	239
507.98672	237
508.31845	233
508.65015	234
508.98187	231
509.31357	232
509.64529	235
509.97699	231
510.30872	234
510.64041	232
510.97214	233
511.30389	231
511.63556	231
511.96732	225
512.29901	226
512.63074	225
512.96246	225
513.29419	226
513.62585	229
513.95764	226
514.28937	226
514.62109	221
514.95282	225
515.28455	227
515.61627	221
515.948	222
516.27972	221
516.61145	223
516.94318	220
517.27496	218
517.60669	220
517.93842	221
518.27014	218
518.60187	215
518.93365	215
519.26538	217
519.59711	216
519.92883	220
520.26056	217
520.59235	218
520.92407	216
521.25586	215
521.58759	219
521.91931	216
522.2511	217
522.58282	216
522.91461	216
523.24634	217
523.57806	214
523.90979	215
524.24164	214
524.57336	211
524.90509	213
525.23688	215
525.5686	213
525.90039	214
526.23218	210
526.5639	214
526.89569	214
527.22742	216
527.5592	213
527.89099	212
528.22278	215
528.5545	213
528.88629	212
529.21802	212
529.5498	212
529.88153	208
530.21338	214
530.54517	211
530.87689	213
531.20868	212
531.54041	210
531.87219	211
532.20404	212
532.53583	210
532.86755	209
533.19934	210
533.53113	209
533.86292	212
534.19464	207
534.52649	211
534.85828	212
535.19006	209
535.52185	209
535.85364	207
536.18542	207
536.51715	208
536.849	209
537.18079	210
537.51257	210
537.84436	209
538.17615	209
538.50793	207
538.83972	208
539.17151	206
539.50336	206
539.83521	205
540.16699	209
540.49878	208
540.83057	210
541.16235	208
541.49414	205
541.82593	209
542.15784	207
542.48962	210
542.82141	208
543.1532	206
543.48499	208
543.81683	208
544.14862	206
544.48041	206
544.81226	208
545.1441	207
545.47589	205
545.80774	205
546.13953	208
546.47131	205
546.80316	206
547.13495	210
547.4668	207
547.79858	208
548.13043	206
548.46228	207
548.79413	203
549.12592	207
549.45776	207
549.78955	208
550.1214	208
550.45319	206
550.78503	205
551.11688	206
551.44867	206
551.78052	204
552.11243	206
552.44421	206
552.77606	206
553.10791	207
553.4397	205
553.77155	205
554.10339	207
554.43524	207
554.76709	207
555.09888	207
555.43073	204
555.76257	206
556.09442	206
556.42633	206
556.75818	205
557.08997	204
557.42181	207
557.75366	204
558.08551	205
558.41736	205
558.74921	205
559.08105	204
559.4129	202
559.74475	205
560.0766	205
560.40845	206
560.7403	205
561.07214	206
561.40405	207
561.7359	206
562.06781	205
5

Note: pl_ws2.txt
wavelength	intensity
496.0459	386
496.37759	361
496.70929	331
497.04089	310
497.37259	291
497.70425	278
498.03595	279
498.36761	280
498.69931	274
499.03098	271
499.36267	276
499.69437	279
500.02603	267
500.35773	273
500.68939	274
501.02109	280
501.35275	271
501.68445	269
502.01617	276
502.34787	271
502.67953	269
503.01123	269
503.3429	277
503.67465	275
504.00632	274
504.33801	275
504.66968	265
505.00143	271
505.3331	268
505.66479	273
505.99652	269
506.32822	269
506.65988	276
506.99164	274
507.3233	273
507.65506	275
507.98672	272
508.31845	271
508.65015	276
508.98187	271
509.31357	274
509.64529	278
509.97699	272
510.30872	279
510.64041	279
510.97214	284
511.30389	276
511.63556	279
511.96732	282
512.29901	279
512.63074	277
512.96246	281
513.29419	285
513.62585	283
513.95764	288
514.28937	285
514.62109	285
514.95282	289
515.28455	284
515.61627	285
515.948	290
516.27972	282
516.61145	285
516.94318	289
517.27496	290
517.60669	292
517.93842	289
518.27014	295
518.60187	299
518.93365	287
519.26538	291
519.59711	297
519.92883	292
520.26056	298
520.59235	297
520.92407	306
521.25586	296
521.58759	298
521.91931	302
522.2511	303
522.58282	303
522.91461	299
523.24634	308
523.57806	304
523.90979	306
524.24164	315
524.57336	311
524.90509	308
525.23688	308
525.5686	313
525.90039	311
526.23218	319
526.5639	307
526.89569	311
527.22742	318
527.5592	311
527.89099	311
528.22278	319
528.5545	313
528.88629	310
529.21802	311
529.5498	313
529.88153	307
530.21338	308
530.54517	309
530.87689	314
531.20868	308
531.54041	322
531.87219	309
532.20404	315
532.53583	315
532.86755	316
533.19934	305
533.53113	309
533.86292	305
534.19464	307
534.52649	305
534.85828	307
535.19006	308
535.52185	306
535.85364	306
536.18542	302
536.51715	298
536.849	305
537.18079	301
537.51257	299
537.84436	295
538.17615	296
538.50793	301
538.83972	292
539.17151	285
539.50336	282
539.83521	291
540.16699	289
540.49878	290
540.83057	285
541.16235	287
541.49414	286
541.82593	286
542.15784	283
542.48962	278
542.82141	283
543.1532	281
543.48499	288
543.81683	288
544.14862	281
544.48041	276
544.81226	275
545.1441	278
545.47589	269
545.80774	273
546.13953	270
546.47131	271
546.80316	276
547.13495	271
547.4668	272
547.79858	268
548.13043	268
548.46228	266
548.79413	267
549.12592	261
549.45776	269
549.78955	273
550.1214	267
550.45319	263
550.78503	263
551.11688	272
551.44867	264
551.78052	264
552.11243	263
552.44421	268
552.77606	261
553.10791	257
553.4397	259
553.77155	263
554.10339	268
554.43524	264
554.76709	260
555.09888	265
555.43073	257
555.76257	263
556.09442	263
556.42633	260
556.75818	263
557.08997	257
557.42181	262
557.75366	260
558.08551	255
558.41736	260
558.74921	267
559.08105	259
559.4129	261
559.74475	261
560.0766	259
560.40845	261
560.7403	250
561.07214	264
561.40405	260
561.7359	265
562.06781	264
5

Note: README.md
# TMD-Spectra

Raman and PL spectra from MoS<sub>2</sub> and WS<sub>2</sub> samples

File: raman_mos2.txt
raman_shift	intensity
-18.8597	6
-14.3731	8
-9.8912	8
-5.409811	9
-0.930318	32
3.54728	20
8.021615	12
12.49542	10
16.966	10
21.4333	8
25.9	7
30.3636	11
34.8252	8
39.2849	8
43.7414	7
48.1961	10
52.6502	11
57.101	10
61.55	11
65.9958	9
70.4396	7
74.8816	11
79.32177	9
83.7587	11
88.1951	15
92.6269	12
97.05954	15
101.488	10
105.914	13
110.34	14
114.762	15
119.181	17
123.6	26
128.016	50
132.431	96
136.841	172
141.25	292
145.658	362
150.063	382
154.466	368
158.866	336
163.266	317
167.663	310
172.056	306
176.45	302
180.838	337
185.226	342
189.613	337
193.997	341
198.379	348
202.758	351
207.133	363
211.51	373
215.882	383
220.253	360
224.622	378
228.988	346
233.353	306
237.716	279
242.074	276
246.432	277
250.79	262
255.143	265
259.494	268
263.843	264
268.191	255
272.537	268
276.881	268
281.22	283
285.56	293
289.896	292
294.23	305
298.565	318
302.896	330
307.222	339
311.548	348
315.8735	360
320.195	337
324.517	348
328.834	371
333.149	377
337.463	427
341.7756	474
346.083	555
350.391	586
354.697	598
359	705
363.301	683
367.599	705
371.897	779
376.1915	987
380.486	2644
384.774	2060
389.064	766
393.35	890
397.633	1605
401.916	4238
406.196	5188
410.475	2060
414.752	1126
419.027	781
423.297	712
427.567	685
431.837	707
436.102	744
440.367	749
444.627	753
448.886	723
453.145	652
457.4	593
461.651	489
465.905	379
470.155	272
474.4025	238
478.645	244
482.889	256
487.131	271
491.369	303
495.606	319
499.84	334
504.073	385
508.303	553
512.533	940
516.7605	2747
520.984	6231
525.208	2258
529.4281	1010
533.6463	670
537.863	556
542.078	468
546.291	468
550.501	460
554.71	457
558.915	457
563.119	466
567.323	433
571.521	408
575.721	406
579.917	394
584.112	387
588.303	388
592.493	387
596.683	371
600.8689	333
605.053	313
609.234	314
613.414	322
617.5929	311
621.769	303
625.941	288
630.116	266
634.286	249
638.455	235
642.618	219
646.784	199
650.944	192
655.106	194
659.263	195
663.419	195
667.572	208
671.725	220
675.877	217
680.022	221
684.17	226
688.314	236
692.454	241
696.595	247
700.733	256
704.8703	249
709.004	222
713.135	241
717.267	237
721.3949	251
725.521	260
729.644	270
733.767	273
737.8877	304
742.007	326
746.122	361
750.238	378
754.3501	366
758.46	338
762.569	301
766.676	258
770.778	233
774.8819	256
778.981	250
783.082	233
787.178	230
791.273	216
795.366	211
799.457	207
803.544	207
807.632	241
811.717	246
815.799	267
819.882	270
823.961	245
828.037	213
832.112	184
836.186	170
840.2569	166
844.325	166
848.394	153
852.46	162
856.523	157
860.5835	152
864.643	153
868.702	151
872.757	153
876.811	155
880.862	149
884.912	147
888.96	148
893.008	164
897.049	156
901.094	156
905.134	162
909.171	167
913.2074	166
917.243	166
921.275	170
925.307	182
929.335	192
933.363	222
937.388	258
941.41	303
945.431	299
949.451	306
953.467	306
957.483	317
961.496	307
965.509	309
969.519	335
973.526	327
977.531	317
981.536	339
985.5376	333
989.538	283
993.536	252
997.532	216
1001.53	198
1005.52	185
1009.51	174
1013.5	170
1017.48	154
1021.47	153
1025.45	136
1029.43	138
1033.41	127
1037.39	122
1041.37	107
1045.34	109
1049.31	97
1053.28	108
1057.25	102
1060.23	103